n v(n)    Re(T)       Im(T)        Mod(T) 
   
0  91  378572.0  0.0  378572.0  
1  915  1958.4047  -45.069935  1958.9232  
2  913  2104.7795  -20.150393  2104.876  
3  914  2170.1338  154.70422  2175.641  
4  912  2143.7017  284.79797  2162.537  
5  49  2241.644  95.12652  2243.6616  
6  51  3693.3235  -632.60156  3747.1086  
7  51  -6258.407  942.57526  6328.9893  
8  51  190.57321  -390.93588  434.91263  
9  50  1503.0867  -291.55896  1531.1029  
10  914  2104.0657  292.5553  2124.3071  
11  914  2099.3074  789.16486  2242.7378  
12  912  2056.565  623.22516  2148.9229  
13  913  4941.163  -1377.258  5129.5156  
14  913  -4481.875  1573.7258  4750.1387  
15  50  -988.5685  -207.39229  1010.0887  
16  50  671.8497  -548.52905  867.33276  
17  50  1781.5337  98.60835  1784.2606  
18  50  2055.5178  1086.2216  2324.8723  
19  51  1703.3215  1549.1654  2302.4375  
20  913  5408.959  -2016.3839  5772.5767  
21  913  -2293.058  1758.9639  2889.9946  
22  913  -1310.7045  201.04832  1326.0342  
23  914  -20.4318  -572.5687  572.93317  
24  913  1273.262  -278.51285  1303.367  
25  50  1948.4178  966.521  2174.9702  
26  51  1405.443  2503.4966  2871.0215  
27  50  4938.9697  -2035.2012  5341.86  
28  50  -201.29688  1597.2925  1609.9266  
29  49  -782.003  739.93787  1076.5857  
30  913  -360.4154  -289.5443  462.315  
31  913  776.001  -455.46136  899.7903  
32  911  1713.4479  483.97736  1780.488  
33  915  1333.4835  3087.7534  3363.391  
34  913  4012.114  -1481.8551  4277.0264  
35  51  1333.206  1252.6293  1829.3492  
36  50  157.43533  1089.0665  1100.3871  
37  51  -36.554043  231.40573  234.27509  
38  50  583.0684  -291.76736  651.9946  
39  51  1430.0415  32.969  1430.4215  
40  915  1564.3195  3039.7346  3418.6375  
41  915  2922.1218  -515.212  2967.1938  
42  914  2015.7831  996.64606  2248.7075  
43  914  1207.2183  1215.4214  1713.0747  
44  914  766.3112  777.69366  1091.8059  
45  52  889.9534  309.61447  942.2729  
46  50  1336.2319  90.219955  1339.2742  
47  49  1784.9829  2260.699  2880.4382  
48  50  2163.4336  555.8841  2233.708  
49  50  2063.1418  1071.7332  2324.9014  
50  914  1805.1676  1249.9325  2195.6687  
51  913  1687.2211  1155.8497  2045.1659  
52  914  1770.7814  1109.5651  2089.6892  
53  914  1926.7697  1180.6924  2259.7512  
54  913  2003.7473  1158.0376  2314.3152  
55  51  2022.4833  1404.7261  2462.4568  
56  52  1967.7368  1455.2303  2447.383  
57  50  2050.7832  1374.0725  2468.5598  
58  49  2487.5042  1335.3976  2823.2896  
59  51  3086.3503  1803.3765  3574.5945  
60  912  3952.4055  3646.3533  5377.49  
61  914  2441.7183  336.43558  2464.7874  
62  914  2510.143  1963.0295  3186.5818  
63  913  2188.874  2147.2317  3066.2312  
64  912  2235.4004  1821.9883  2883.8613  
65  50  2929.3584  1525.5986  3302.8157  
66  51  4323.0806  2086.3716  4800.2056  
67  48  8909.568  8270.6  12156.612  
68  50  3889.6436  794.59644  3969.976  
69  51  4167.032  2848.1936  5047.4116  
70  914  3774.6213  3511.8486  5155.6616  
71  913  3423.0806  3230.0461  4706.4507  
72  914  3858.346  2450.0623  4570.5186  
73  913  4995.2197  1793.3275  5307.3765  
74  913  24051.287  19944.205  31244.771  
75  51  11156.13  6209.7715  12767.948  
76  51  12529.755  8318.646  15039.769  
77  50  14302.592  10970.67  18025.531  
78  50  18041.023  14262.375  22997.693  
79  51  28301.48  20841.477  35147.418  
80  913  72268.88  50076.348  87922.875  
81  913  -149487.98  -106137.74  183335.42  
82  913  -35112.367  -26839.59  44195.496  
83  914  -18411.258  -14497.519  23434.002  
84  913  -12166.653  -8713.3  14964.928  
85  51  -9283.41  -5583.478  10833.141  
86  52  -6743.378  -3910.0754  7794.988  
87  49  3324.861  -92.8374  3326.157  
88  50  -16157.954  -9678.755  18835.016  
89  51  -8952.114  -7052.447  11396.375  
90  914  -6080.945  -5481.8164  8187.075  
91  915  -4793.74  -3851.2793  6149.1704  
92  913  -4521.8154  -2558.622  5195.5137  
93  913  -4542.8438  -1990.4241  4959.76  
94  911  1337.595  -979.5809  1657.9321  
95  49  -6306.0913  -3355.9426  7143.4683  
96  49  -4973.6743  -3602.5283  6141.3066  
97  50  -3811.2483  -3378.6152  5093.1973  
98  50  -3131.154  -2721.181  4148.367  
99  50  -3049.7695  -1973.0637  3632.3647  
100  913  -3452.786  -1521.6982  3773.2341  
101  914  -836.4904  -1498.1177  1715.8301  
102  913  -3020.6157  -1745.9672  3488.9138  
103  913  -2937.536  -1983.4998  3544.487  
104  51  -2581.5525  -2025.0754  3281.0583  
105  50  -2365.2766  -1805.3662  2975.547  
106  52  -2307.7388  -1642.8221  2832.7588  
107  52  -2164.161  -1595.1544  2688.5144  
108  51  -2470.466  -1575.2609  2929.9573  
109  57  -2088.5237  -1539.2566  2594.4636  
110  913  -1818.437  -1423.0854  2309.0876  
111  913  -1666.1564  -1058.2177  1973.8038  
112  913  -1801.6934  -798.514  1970.7166  
113  912  -2022.5609  -891.8984  2210.4832  
114  51  -760.7871  -2037.922  2175.2983  
115  50  -3295.0085  -1341.1339  3557.488  
116  51  -2223.194  -1725.3871  2814.17  
117  51  -1383.7659  -1508.5538  2047.0815  
118  49  -968.0376  -796.8188  1253.801  
119  913  -1249.72  87.141495  1252.7544  
120  914  -1997.4534  366.59476  2030.8156  
121  913  333.1516  -2544.939  2566.6523  
122  913  -3194.217  -1040.0834  3359.2852  
123  912  -2628.0862  -1758.8359  3162.3315  
124  51  -1514.1176  -1864.3169  2401.7139  
125  51  -693.90186  -1040.627  1250.7615  
126  51  -694.8072  373.50354  788.8358  
127  50  -2039.9115  2158.4988  2969.9084  
128  52  899.97644  -2852.5505  2991.154  
129  913  -2477.0818  -808.81995  2605.7866  
130  914  -2755.7427  -1576.9723  3175.0525  
131  912  -1961.8055  -2177.3228  2930.7705  
132  913  -820.94727  -1753.9319  1936.5514  
133  914  -307.98322  -202.68561  368.69382  
134  50  -1788.441  4071.5542  4447.03  
135  49  854.1474  -2548.0906  2687.44  
136  49  -1543.2634  -700.5175  1694.8118  
137  49  -2456.0164  -1239.835  2751.2192  
138  51  -2261.3264  -2168.7356  3133.211  
139  914  -1295.8196  -2442.3274  2764.7986  
140  913  -283.657  -1550.1052  1575.845  
141  914  -1219.7688  5540.1187  5672.808  
142  913  437.67746  -1697.7937  1753.3011  
143  913  -819.38226  -592.1166  1010.9349  
144  49  -1867.1398  -876.6302  2062.6904  
145  48  -2194.172  -1821.0135  2851.4  
146  51  -1712.1959  -2723.8118  3217.2607  
147  50  -881.6299  -3505.0103  3614.1897  
148  51  -500.6513  6008.762  6029.5835  
149  913  -50.22551  -436.85614  439.7339  
150  912  -546.97644  -291.8289  619.9575  
151  913  -1289.4901  -517.42474  1389.4291  
152  913  -1723.423  -1320.999  2171.4568  
153  913  -1835.1785  -2462.8103  3071.37  
154  51  -1940.1061  -5370.0215  5709.741  
155  49  214.26648  5350.367  5354.656  
156  49  -359.5141  755.19855  836.4061  
157  52  -558.6247  204.08575  594.73737  
158  51  -893.8277  -188.50621  913.4892  
159  914  -1097.4198  -755.81964  1332.514  
160  914  -1322.8546  -1625.808  2095.995  
161  914  -3079.3904  -6628.4805  7308.8574  
162  913  624.01154  3676.5469  3729.127  
163  913  -361.26907  1507.2023  1549.8948  
164  52  -784.1075  846.4931  1153.8523  
165  49  -927.42365  213.37607  951.6533  
166  51  -668.7922  -313.58835  738.6614  
167  50  -309.59183  -549.6806  630.86914  
168  51  -4082.358  -6793.519  7925.752  
169  914  545.22815  1549.339  1642.4752  
170  915  -208.1591  1560.2921  1574.1162  
171  914  -876.69336  1330.9893  1593.7765  
172  912  -1158.7815  679.55756  1343.344  
173  913  -626.7915  33.9809  627.7119  
174  49  938.1321  387.37354  1014.9631  
175  51  -4451.839  -5967.2505  7444.9277  
176  50  36.58806  -411.1866  412.81125  
177  51  26.527328  1009.5177  1009.86615  
178  50  -743.87427  1523.1387  1695.0813  
179  914  -1418.9406  1146.6427  1824.3304  
180  914  -1134.4697  346.6242  1186.242  
181  913  1991.0538  980.5138  2219.3923  
182  912  -4188.8706  -4387.9165  6066.3374  
183  913  -591.8001  -1632.7385  1736.6815  
184  49  54.072224  65.315125  84.793106  
185  52  -479.84125  1204.9088  1296.9398  
186  49  -1478.1583  1372.2053  2016.9034  
187  49  -1841.0891  754.91327  1989.85  
188  52  2414.5068  1080.6195  2645.2944  
189  913  -3353.8828  -2570.2874  4225.507  
190  912  -1198.7872  -1914.6464  2258.9736  
191  913  -129.57068  -748.00024  759.1396  
192  914  -265.3597  537.4515  599.39124  
193  913  -1232.4901  1273.897  1772.5251  
194  50  -2408.0225  1091.5845  2643.885  
195  50  2045.5741  882.8175  2227.9453  
196  50  -2223.5476  -1058.0242  2462.4336  
197  49  -1349.022  -1487.6755  2008.2427  
198  50  -434.36627  -1037.9906  1125.2104  
199  913  -227.50299  -26.699436  229.06433  
200  913  -863.7773  791.126  1171.3204  
201  913  -2477.888  1206.791  2756.1338  
202  913  1070.9376  584.635  1220.1252  
203  912  -1358.2443  -84.54634  1360.8732  
204  51  -1236.0698  -648.3333  1395.781  
205  51  -740.7158  -725.8056  1037.0409  
206  51  -461.11215  -286.84412  543.0506  
207  51  -591.6686  312.00546  668.894  
208  51  -1800.9849  910.48553  2018.0511  
209  913  -177.95905  316.39328  363.00705  
210  913  -877.9351  262.0809  916.21857  
211  913  -953.7436  75.261444  956.7085  
212  914  -791.1456  71.86401  794.40283  
213  898  -824.88806  234.40536  857.54663  
214  50  -891.2836  261.35916  928.81384  
215  50  -493.6665  -64.40833  497.85043  
216  51  -1147.7072  150.24796  1157.5  
217  50  -910.5732  186.00398  929.37665  
218  52  -691.63116  407.233  802.61597  
219  913  -709.3293  904.05  1149.1102  
220  914  -1172.8873  1407.5055  1832.1399  
221  913  -2007.8177  1754.5262  2666.401  
222  913  1060.7339  -1755.757  2051.3018  
223  50  -1516.318  -47.32912  1517.0564  
224  51  -1245.8003  -127.9335  1252.3519  
225  50  -700.3726  268.17615  749.96014  
226  49  -509.3041  1373.4445  1464.8346  
227  51  -1277.4626  3064.2861  3319.9038  
228  63  -4388.0146  6597.5923  7923.566  
229  912  2484.689  -3994.1436  4703.92  
230  913  -1132.668  -719.4937  1341.8673  
231  913  -1442.3297  -673.7035  1591.9144  
232  913  -860.3365  -237.2666  892.4541  
233  49  -370.1694  1333.8306  1384.2433  
234  49  -1239.3276  4932.353  5085.67  
235  50  -10749.335  24385.934  26649.99  
236  50  4091.4468  -8573.749  9499.953  
237  50  314.64066  -3639.6177  3653.1926  
238  914  -602.141  -3334.1357  3388.0725  
239  914  -153.89517  -3757.002  3760.1526  
240  913  996.7741  -3611.7896  3746.8098  
241  913  1967.2026  -3051.5425  3630.6746  
242  913  20033.432  -70567.17  73355.734  
243  49  237.53146  2281.6428  2293.9736  
244  49  -907.4327  1811.8862  2026.417  
245  49  -1726.5972  971.0431  1980.9247  
246  52  -1619.6935  34.55252  1620.062  
247  52  -721.97095  25.901615  722.4354  
248  913  273.15326  2886.156  2899.0532  
249  912  1953.1549  -14002.089  14137.656  
250  914  1038.582  -2229.0876  2459.1633  
251  914  49.346146  -365.30017  368.61804  
252  913  -935.03015  -55.855  936.6969  
253  49  -1325.4851  -376.03293  1377.7922  
254  49  -947.4874  -529.25757  1085.2861  
255  50  278.08087  1946.133  1965.9  
256  50  -108.648094  -5256.468  5257.5903  
257  50  392.2266  -2104.4302  2140.67  
258  914  142.62994  -901.6808  912.89185  
259  912  -464.0803  -522.03064  698.4887  
260  914  -816.4209  -613.55536  1021.2704  
261  913  -863.6442  -814.51483  1187.146  
262  912  -42.38111  364.43796  366.89398  
263  50  -445.59305  -1620.6287  1680.7708  
264  49  -215.6504  -1149.8594  1169.9067  
265  51  -273.83255  -824.6861  868.95996  
266  47  -403.4488  -769.37317  868.73816  
267  50  -346.2487  -742.0134  818.8236  
268  913  -230.39996  -660.1278  699.1801  
269  912  -595.1589  -1229.5316  1366.0022  
270  913  -280.30054  -334.6528  436.5328  
271  912  -516.74475  -193.23633  551.69324  
272  914  -731.83264  -285.35638  785.4981  
273  51  -792.03894  -651.8405  1025.7786  
274  52  -307.78745  -872.9742  925.6441  
275  50  878.59955  -363.2062  950.7134  
276  51  -1150.572  -2344.998  2612.0552  
277  50  -59.007175  -366.2099  370.93332  
278  915  -392.93298  321.09076  507.44025  
279  913  -1063.7588  424.66824  1145.3933  
280  915  -1466.3622  -198.16255  1479.6914  
281  912  -887.4601  -883.8448  1252.5043  
282  914  2221.3882  -81.94891  2222.8992  
283  50  -1390.4628  -2689.1272  3027.3408  
284  50  34.249138  -975.10974  975.711  
285  52  -71.33267  228.6508  239.5194  
286  51  -989.74316  828.1577  1290.5181  
287  49  -2035.4377  469.34155  2088.8484  
288  914  -2274.8586  -563.77484  2343.6775  
289  913  3310.3687  -75.33159  3311.2258  
290  914  -1171.2798  -2457.56  2722.4067  
291  911  -36.23985  -1647.4396  1647.8381  
292  912  302.3534  -369.9172  477.76178  
293  51  -523.1324  762.98535  925.10223  
294  50  -2079.3186  1031.6267  2321.1677  
295  51  -4055.8628  230.9064  4062.4304  
296  51  3671.9275  -247.45546  3680.256  
297  51  -689.6383  -1840.7821  1965.7263  
298  913  -18.257113  -1901.3064  1901.394  
299  913  504.82455  -1003.6726  1123.4796  
300  913  116.572266  222.70042  251.36542  
301  914  -1446.5602  1101.776  1818.3638  
302  914  -5771.1255  1436.1233  5947.129  
303  50  3132.9187  -495.63293  3171.8813  
304  51  -129.74931  -1238.8478  1245.6238  
305  50  10.770691  -1708.2301  1708.264  
306  52  586.4296  -1430.1913  1545.7512  
307  50  670.6159  -573.9933  882.71967  
308  913  -276.92505  448.9825  527.5157  
309  914  -6876.9854  2733.6511  7400.39  
310  912  1781.2477  -554.4005  1865.5303  
311  913  265.14163  -805.47815  847.99475  
312  912  173.36815  -1313.6525  1325.0431  
313  50  580.3816  -1396.5597  1512.3563  
314  50  973.6632  -1168.4811  1520.976  
315  51  1129.4401  -865.7509  1423.0809  
316  50  -6914.2456  3800.2554  7889.7866  
317  51  116.31418  -323.2568  343.54614  
318  913  80.46891  -591.6588  597.10583  
319  913  260.53845  -878.0756  915.91327  
320  914  583.2565  -1025.8053  1180.0273  
321  914  912.72577  -1259.8668  1555.7418  
322  912  2292.2249  -2541.1147  3422.2156  
323  50  -5921.118  4165.301  7239.4316  
324  50  -1463.7627  155.21983  1471.9696  
325  49  -537.4123  -482.6099  722.3048  
326  51  143.57976  -645.452  661.22876  
327  49  595.4295  -498.9304  776.8319  
328  914  794.2342  -659.44324  1032.3145  
329  915  2925.4  -4088.5793  5027.3696  
330  912  -4204.353  3736.4863  5624.759  
331  913  -2334.953  792.5156  2465.783  
332  887  -1372.976  -304.33847  1406.3019  
333  49  -286.52792  -566.8711  635.1701  
334  50  465.39288  -137.0008  485.1389  
335  51  697.5287  345.07214  778.2166  
336  50  2822.5696  -4922.5654  5674.3765  
337  53  -2206.8801  2708.7039  3493.9084  
338  913  -2404.6804  1178.0243  2677.7283  
339  913  -2046.3112  -34.919212  2046.609  
340  912  -990.889  -663.8828  1192.7285  
341  913  232.30043  -137.74464  270.06866  
342  49  704.65204  1463.9836  1624.7407  
343  50  2148.7603  -4917.563  5366.5254  
344  50  -588.23773  1333.6492  1457.6157  
345  50  -1787.3175  1233.2375  2171.4922  
346  49  -2211.5352  262.69284  2227.0823  
347  73  -1623.0902  -580.76227  1723.8638  
348  914  -374.41217  -455.61377  589.7189  
349  914  733.07086  2195.3567  2314.5159  
350  914  1282.8762  -3955.139  4157.9917  
351  914  310.77548  175.21695  356.76654  
352  50  -933.6514  954.7395  1335.3773  
353  50  -1862.8975  469.3981  1921.125  
354  51  -1925.3397  -426.69485  1972.0552  
355  52  -1085.4542  -761.81506  1326.1119  
356  52  769.39935  2223.3647  2352.7275  
357  912  424.67084  -2574.381  2609.1729  
358  913  494.64374  -504.21548  706.3326  
359  914  -269.8626  482.53656  552.87195  
360  913  -1202.5327  462.45633  1288.3907  
361  914  -1672.4435  -135.37822  1677.9137  
362  50  -1528.9563  -838.65204  1743.8591  
363  50  469.38797  1551.6158  1621.0604  
364  49  -134.79886  -1186.1536  1193.7885  
365  51  166.50862  -503.1792  530.0136  
366  49  -52.885746  57.278496  77.959785  
367  913  -595.75366  216.63959  633.9205  
368  913  -983.2595  -22.19281  983.50995  
369  913  -1246.134  -533.5809  1355.5658  
370  913  -144.14493  488.58383  509.4035  
371  912  -422.26834  -255.609  493.60562  
372  50  -390.1377  -190.47467  434.15207  
373  50  -467.00916  -65.11157  471.5263  
374  50  -507.0554  -113.922295  519.69556  
375  52  -333.31198  -151.25385  366.0254  
376  50  262.86853  246.19946  360.15836  
377  913  -804.95996  -591.63257  998.9943  
378  913  -579.6902  23.481266  580.1656  
379  914  -825.7223  316.25656  884.2146  
380  914  -1187.6982  196.90399  1203.9095  
381  913  -1268.1644  -300.57794  1303.299  
382  50  -683.8214  -610.029  916.3772  
383  49  3489.938  1144.6392  3672.8552  
384  50  -1088.9241  -1241.7574  1651.5802  
385  49  -615.30457  -176.196  640.035  
386  50  -1074.6382  511.7413  1190.2632  
387  914  -2124.6316  629.884  2216.0356  
388  914  -3070.3928  -123.64385  3072.8813  
389  915  -3729.5703  -1320.6376  3956.4856  
390  912  9700.734  1806.5914  9867.523  
391  912  -80.74159  -1345.9261  1348.3458  
392  50  -223.0951  -643.3718  680.9543  
393  51  -1206.1213  409.44135  1273.7233  
394  51  -3428.6094  909.2826  3547.1335  
395  49  -7409.214  341.47714  7417.079  
396  50  -19863.934  -1878.7832  19952.586  
397  913  34538.816  2120.6006  34603.855  
398  913  10929.903  -935.7152  10969.884  
399  913  8835.1455  -924.78455  8883.413  
400  914  8625.988  10.156302  8625.994  
401  915  8833.913  944.3176  8884.242  
402  51  10927.951  957.9705  10969.859  
403  51  34510.152  -2049.439  34570.953  
404  49  -19906.355  1839.4163  19991.158  
405  50  -7416.5586  -357.65167  7425.1772  
406  51  -3430.5234  -914.76465  3550.3923  
407  914  -1208.5073  -408.85052  1275.7933  
408  914  -225.63493  645.7145  684.0017  
409  915  -82.74303  1346.113  1348.6537  
410  913  9699.135  -1785.6301  9862.134  
411  914  -3746.1104  1313.9662  3969.8677  
412  51  -3076.201  118.7059  3078.4905  
413  51  -2125.714  -632.95905  2217.949  
414  50  -1074.5111  -512.7785  1190.5947  
415  51  -618.0496  177.81436  643.11993  
416  52  -1091.0005  1241.3544  1652.6472  
417  913  3489.4114  -1137.8962  3670.2588  
418  913  -690.55566  610.8382  921.9493  
419  914  -1273.0819  297.83978  1307.4579  
420  913  -1188.833  -198.5047  1205.2916  
421  913  -826.1715  -316.07062  884.5677  
422  50  -580.19104  -23.167797  580.65344  
423  52  -806.6456  591.22906  1000.1145  
424  50  262.6787  -245.80724  359.7517  
425  51  -335.16754  152.29869  368.14694  
426  49  -508.58212  114.88939  521.39746  
427  914  -468.4537  65.826225  473.056  
428  912  -391.81033  189.86887  435.39124  
429  912  -423.80844  255.34015  494.785  
430  913  -145.33461  -487.2846  508.49625  
431  912  -1249.3418  532.30835  1358.0159  
432  49  -984.52673  21.387543  984.75903  
433  51  -595.60205  -216.6221  633.772  
434  50  -53.78152  -56.663902  78.1233  
435  50  163.82196  504.5354  530.46545  
436  50  -138.0741  1186.4181  1194.4255  
437  914  470.0526  -1549.635  1619.3573  
438  914  -1533.9221  837.9822  1747.8933  
439  913  -1672.2831  132.5641  1677.5292  
440  913  -1201.4484  -464.15323  1287.9893  
441  912  -270.2552  -480.70526  551.4666  
442  50  494.56155  508.06976  709.03174  
443  51  418.58844  2574.6985  2608.5032  
444  50  771.23016  -2220.0845  2350.2278  
445  50  -1090.0342  763.2466  1330.684  
446  49  -1927.1412  423.02625  1973.0242  
447  914  -1862.3706  -471.53464  1921.1375  
448  913  -928.70874  -955.5351  1332.4966  
449  913  313.0983  -170.75008  356.63165  
450  913  1274.409  3957.3914  4157.531  
451  873  734.82245  -2193.7158  2313.5154  
452  51  -378.3683  456.86725  593.20337  
453  51  -1625.0153  579.51166  1725.256  
454  51  -2211.8794  -267.21057  2227.9614  
455  50  -1783.3545  -1235.5725  2169.5605  
456  53  -583.06665  -1330.7512  1452.8818  
457  913  2139.0764  4922.863  5367.5156  
458  915  709.1919  -1465.338  1627.9338  
459  915  227.67642  139.85583  267.20068  
460  914  -995.0792  662.40533  1195.3926  
461  51  -2047.204  29.38588  2047.4149  
462  50  -2401.2886  -1182.5518  2676.68  
463  49  -2197.4548  -2708.433  3487.7527  
464  52  2812.2642  4931.084  5676.656  
465  50  697.48785  -344.3291  777.8508  
466  78  464.12137  139.06673  484.50818  
467  915  -288.7152  567.37384  636.60785  
468  913  -1376.2761  301.90118  1408.9998  
469  914  -2335.814  -797.70953  2468.2722  
470  915  -4193.405  -3739.9282  5618.8706  
471  50  2919.8875  4098.935  5032.5947  
472  50  790.9841  661.58  1031.1857  
473  51  593.4064  501.2918  776.80414  
474  51  140.06087  644.0676  659.1207  
475  50  -540.9125  480.86255  723.75073  
476  913  -1466.5814  -157.67564  1475.0331  
477  914  -5910.067  -4172.6597  7234.6377  
478  914  2290.7114  2551.368  3428.8245  
479  914  912.4017  1263.179  1558.2356  
480  914  580.34204  1027.6942  1180.234  
481  51  257.21582  878.9216  915.7855  
482  50  76.44585  591.6331  596.5515  
483  52  111.55018  321.92804  340.7068  
484  49  -6905.67  -3812.1768  7888.027  
485  49  1131.7922  872.5319  1429.0785  
486  913  973.45154  1175.8087  1526.4777  
487  913  577.43585  1400.4895  1514.8607  
488  912  170.18861  1314.7904  1325.7594  
489  912  262.92957  805.7545  847.5684  
490  915  1773.3654  557.8675  1859.0431  
491  49  -6872.9697  -2746.5925  7401.4517  
492  50  -271.44675  -446.56262  522.5911  
493  50  671.4576  580.63354  887.68835  
494  51  583.3408  1434.2278  1548.3204  
495  50  6.8204193  1708.8759  1708.8895  
496  913  -133.23172  1237.7985  1244.9481  
497  913  3126.9688  501.6521  3166.9526  
498  913  -5769.8506  -1446.5522  5948.419  
499  913  -1441.125  -1102.4792  1814.4701  
500  913  119.89322  -218.21335  248.98082  
501  49  502.33386  1007.47375  1125.7632  
502  52  -19.859669  1901.2617  1901.3655  
503  50  -692.7051  1839.0071  1965.1431  
504  50  3667.927  255.22656  3676.7961  
505  49  -4058.3325  -237.20914  4065.259  
506  913  -2075.7373  -1035.1262  2319.5198  
507  913  -519.145  -760.8781  921.1119  
508  912  302.78998  374.0219  481.22153  
509  913  -40.29295  1651.4596  1651.951  
510  914  -1176.1085  2456.0842  2723.1565  
511  49  3312.98  80.2473  3313.9517  
512  51  -2279.3367  559.3806  2346.973  
513  50  -2033.5197  -472.70636  2087.7388  
514  51  -985.46246  -828.74414  1287.6152  
515  50  -68.42175  -227.18707  237.26672  
516  914  32.816692  979.4153  979.9649  
517  913  -1393.8818  2688.67  3028.5068  
518  914  2222.9673  86.45088  2224.6477  
519  913  -891.57776  882.99243  1254.8253  
520  913  -1468.9421  199.39685  1482.4136  
521  53  -1061.2354  -425.54166  1143.3749  
522  50  -390.49643  -318.3191  503.80008  
523  50  -59.81687  368.7257  373.5461  
524  51  -1154.9012  2344.7405  2613.734  
525  51  878.7449  365.59198  951.76154  
526  914  -309.73325  874.45514  927.6888  
527  914  -793.70184  652.15106  1027.2603  
528  913  -732.2088  286.42322  786.23663  
529  913  -515.378  195.67938  551.2757  
530  914  -281.06085  339.69986  440.89816  
531  50  -596.17017  1230.9276  1367.6993  
532  50  -229.74117  662.87  701.5537  
533  50  -347.3251  743.0563  820.224  
534  49  -405.04495  771.84686  871.6702  
535  50  -274.3599  827.46265  871.76135  
536  912  -217.53104  1151.7904  1172.1522  
537  914  -447.8025  1620.0587  1680.8085  
538  914  -41.85638  -362.87384  365.27985  
539  913  -865.3401  815.3545  1188.956  
540  914  -812.5338  615.4938  1019.33496  
541  51  -463.2079  525.25574  700.325  
542  51  142.23  906.5586  917.648  
543  51  390.6006  2110.06  2145.9082  
544  50  -117.935974  5255.1846  5256.508  
545  50  281.33676  -1946.611  1966.8362  
546  912  -949.1574  528.86633  1086.554  
547  913  -1326.9441  378.6553  1379.9132  
548  914  -932.08466  57.90733  933.8817  
549  914  52.683426  373.91837  377.61154  
550  914  1036.8525  2243.37  2471.3909  
551  51  1923.4137  14008.395  14139.824  
552  49  277.92322  -2889.1487  2902.4854  
553  50  -723.15265  -22.862411  723.514  
554  51  -1617.6451  -31.44077  1617.9507  
555  50  -1718.6239  -962.9602  1970.0154  
556  913  -894.2103  -1791.0931  2001.9059  
557  914  257.86365  -2234.6714  2249.4998  
558  912  19896.111  70609.91  73359.484  
559  912  1947.4279  3012.915  3587.4966  
560  911  981.309  3590.667  3722.3455  
561  51  -169.46164  3737.1938  3741.034  
562  50  -615.5921  3315.6746  3372.3362  
563  51  302.7567  3621.0432  3633.678  
564  50  4063.3245  8551.691  9467.947  
565  49  -10706.975  -24426.56  26670.135  
566  913  -1227.6598  -4931.626  5082.134  
567  912  -368.2159  -1333.4993  1383.4028  
568  914  -862.0293  235.15332  893.5276  
569  913  -1442.7969  667.219  1589.605  
570  879  -1132.5562  713.7259  1338.689  
571  51  2474.1084  3989.9602  4694.7837  
572  49  -4377.61  -6614.379  7931.802  
573  51  -1270.9078  -3067.2754  3320.1484  
574  51  -508.39536  -1376.4878  1467.3733  
575  52  -700.89886  -268.86047  750.6965  
576  913  -1245.2869  124.07733  1251.453  
577  913  -1515.5109  44.10365  1516.1526  
578  915  1055.4381  1754.4602  2047.4569  
579  913  -2006.0636  -1761.1997  2669.4785  
580  49  -1169.9701  -1410.52  1832.5929  
581  51  -706.4762  -906.1164  1148.9802  
582  50  -691.97565  -409.37234  804.0  
583  49  -910.13544  -188.24951  929.4  
584  50  -1146.9674  -153.59833  1157.2064  
585  97  -495.29358  63.22794  499.31302  
586  913  -891.77875  -264.16138  930.08093  
587  913  -824.6649  -237.03708  858.05524  
588  912  -792.8585  -74.991455  796.3971  
589  912  -953.61285  -77.72467  956.77515  
590  51  -876.6907  -264.76617  915.79895  
591  49  -178.73317  -317.33737  364.2095  
592  48  -1798.8391  -915.0605  2018.2067  
593  51  -592.3715  -313.77646  670.34296  
594  50  -462.15817  286.01184  543.5006  
595  915  -742.8866  722.2669  1036.1226  
596  913  -1236.6962  644.3716  1394.5007  
597  913  -1357.8384  79.45645  1360.1613  
598  913  1071.0668  -584.5596  1220.2024  
599  914  -2480.1123  -1205.5887  2757.608  
600  50  -861.2568  -791.75476  1169.8884  
601  51  -226.93694  28.596321  228.73155  
602  50  -436.94513  1039.5887  1127.6816  
603  50  -1351.6991  1483.8975  2007.2474  
604  48  -2224.4475  1050.787  2460.1462  
605  913  2046.5682  -879.9663  2227.7302  
606  914  -2405.0713  -1096.3425  2643.1677  
607  913  -1230.0032  -1275.9553  1772.2781  
608  912  -263.23434  -536.5904  597.6802  
609  914  -131.67418  749.77795  761.2523  
610  51  -1203.4895  1914.5481  2261.3894  
611  49  -3357.0488  2560.6792  4222.186  
612  52  2417.719  -1079.5239  2647.7795  
613  51  -1840.2046  -760.63513  1991.2103  
614  51  -1475.1577  -1374.7183  2016.4177  
615  913  -478.29785  -1203.4714  1295.0337  
616  913  54.618176  -61.70153  82.40282  
617  914  -595.259  1635.7622  1740.7042  
618  914  -4195.5967  4376.75  6062.918  
619  913  1995.2098  -980.3591  2223.0532  
620  50  -1134.3068  -351.43695  1187.5015  
621  50  -1416.5345  -1150.2998  1824.763  
622  51  -739.45795  -1521.9032  1692.0364  
623  50  29.019894  -1006.82324  1007.2414  
624  50  33.827225  416.37173  417.7436  
625  912  -4462.645  5958.4272  7444.3306  
626  914  942.32465  -388.80334  1019.38403  
627  913  -625.8195  -42.498833  627.26086  
628  913  -1157.9731  -683.4265  1344.609  
629  914  -871.93884  -1332.4695  1592.4045  
630  50  -204.39615  -1558.2762  1571.6241  
631  51  546.4558  -1542.1599  1636.1146  
632  50  -4095.3525  6786.739  7926.647  
633  52  -308.8422  546.35156  627.60144  
634  51  -668.9239  311.18112  737.7621  
635  913  -926.08984  -217.39813  951.2646  
636  913  -781.88116  -849.8694  1154.823  
637  913  -358.0047  -1506.8174  1548.7627  
638  917  630.1168  -3669.6978  3723.4028  
639  913  -3094.1782  6626.021  7312.872  
640  49  -1323.8999  1621.1366  2093.035  
641  51  -1098.4291  751.981  1331.1732  
642  51  -892.6316  186.13638  911.8322  
643  49  -556.4096  -208.2145  594.0917  
644  50  -357.32562  -756.3839  836.5394  
645  914  224.1517  -5345.6567  5350.354  
646  913  -1952.4684  5371.828  5715.6514  
647  913  -1840.3448  2457.7017  3070.3691  
648  913  -1724.3204  1316.0634  2169.1714  
649  912  -1288.698  513.3971  1387.1982  
650  51  -545.38727  288.95123  617.2034  
651  51  -49.486576  433.59537  436.4102  
652  50  -488.4685  -6005.884  6025.715  
653  51  -889.6779  3509.3955  3620.412  
654  49  -1718.7018  2722.7207  3219.805  
655  913  -2197.7651  1813.0442  2849.0876  
656  914  -1866.8317  872.06866  2060.4766  
657  915  -818.78595  589.65094  1009.0087  
658  913  436.44565  1696.1448  1751.3971  
659  915  -1210.132  -5543.125  5673.6807  
660  50  -286.8883  1555.3453  1581.5828  
661  49  -1301.2769  2442.0564  2767.1213  
662  50  -2266.693  2164.6409  3134.257  
663  51  -2456.6719  1234.0406  2749.1987  
664  50  -1543.2776  697.05676  1693.3972  
665  914  850.2477  2548.941  2687.0098  
666  914  -1780.6614  -4076.8484  4448.758  
667  914  -308.62262  206.27402  371.21002  
668  913  -822.3105  1753.9924  1937.1846  
669  912  -1966.5232  2171.8623  2929.8806  
670  51  -2757.844  1569.7638  3173.3047  
671  50  -2475.956  803.86066  2603.181  
672  50  895.1117  2852.034  2989.201  
673  50  -2035.9136  -2165.2356  2972.068  
674  51  -692.9989  -372.98676  786.9985  
675  915  -697.46967  1041.7245  1253.6561  
676  914  -1519.4312  1861.4254  2402.8267  
677  914  -2631.4045  1753.8396  3162.3162  
678  913  -3194.077  1033.9072  3357.2446  
679  913  329.98285  2544.4712  2565.779  
680  50  -1996.1898  -374.81808  2031.0742  
681  50  -1250.2117  -89.8248  1253.4343  
682  50  -969.1596  797.88837  1255.347  
683  49  -1387.4005  1508.3386  2049.3818  
684  51  -2227.2178  1722.5964  2815.6416  
685  913  -3295.275  1334.9861  3555.4219  
686  913  -763.2926  2034.2396  2172.7278  
687  913  -2023.8326  888.3259  2210.2085  
688  914  -1801.45  796.85864  1969.8237  
689  51  -1667.4214  1056.284  1973.8364  
690  51  -1822.0232  1420.9813  2310.6182  
691  50  -2091.8274  1536.1702  2595.296  
692  50  -2472.6326  1571.9943  2930.0303  
693  50  -2164.2395  1592.7251  2687.1372  
694  53  -2310.2788  1641.2065  2833.8926  
695  913  -2368.6921  1802.1481  2976.3132  
696  914  -2584.383  2022.8887  3281.9375  
697  912  -2941.5505  1977.5942  3544.5168  
698  916  -3023.4866  1739.4998  3488.17  
699  50  -835.1446  1496.0872  1713.4011  
700  51  -3455.764  1516.597  3773.9065  
701  52  -3053.6394  1969.7526  3633.8188  
702  50  -3137.8992  2717.05  4150.7554  
703  50  -3819.2808  3373.8577  5096.0596  
704  913  -4981.377  3593.6829  6142.367  
705  912  -6307.603  3341.7034  7138.1255  
706  914  1337.2396  982.7196  1659.5022  
707  912  -4549.557  1986.3075  4964.261  
708  913  -4529.633  2553.5962  5199.8486  
709  51  -4804.424  3847.3306  6155.0337  
710  51  -6094.9917  5475.0054  8192.961  
711  50  -8968.641  7036.299  11399.387  
712  52  -16171.378  9644.6045  18829.018  
713  51  3330.1187  95.43424  3331.4858  
714  915  -6757.925  3902.5571  7803.813  
715  913  -9311.568  5573.4253  10852.114  
716  912  -12197.285  8697.593  14980.717  
717  913  -18459.379  14473.688  23457.117  
718  913  -35195.92  26784.398  44228.46  
719  50  -149592.42  105740.32  183190.9  
720  50  72540.33  -50043.547  88127.5  
721  51  28398.176  -20818.766  35211.89  
722  51  18103.2  -14248.699  23038.04  
723  52  14352.126  -10958.67  18057.574  
724  913  12571.807  -8303.983  15066.733  
725  913  11192.594  -6200.727  12795.436  
726  915  24099.883  -19899.396  31253.645  
727  914  4996.2944  -1777.7689  5303.152  
728  913  3867.0962  -2444.2004  4574.773  
729  51  3437.7449  -3223.8052  4712.856  
730  51  3790.621  -3508.1177  5164.852  
731  52  4182.766  -2843.1965  5057.598  
732  51  3901.9604  -793.3702  3981.8  
733  51  8933.932  -8257.718  12165.732  
734  914  4329.664  -2076.0828  4801.6777  
735  914  2935.0193  -1521.0913  3305.7612  
736  913  2243.8657  -1820.1895  2889.2944  
737  913  2200.8438  -2144.2683  3072.7188  
738  912  2520.1333  -1958.3884  3191.6072  
739  52  2449.7256  -333.08472  2472.2664  
740  52  3966.5356  -3639.334  5383.136  
741  51  3096.5388  -1796.6919  3580.0356  
742  50  2495.234  -1331.0543  2828.0554  
743  51  2058.1218  -1370.9489  2472.9265  
744  913  1975.1765  -1450.8788  2450.79  
745  913  2031.6576  -1401.8666  2468.3726  
746  914  2012.8895  -1154.2344  2320.3408  
747  914  1934.3326  -1180.3687  2266.0347  
748  912  1778.8844  -1107.6959  2095.5715  
749  52  1697.0742  -1151.0912  2050.6272  
750  49  1814.3243  -1247.0985  2201.5967  
751  51  2073.144  -1068.6743  2332.379  
752  49  2171.4324  -555.71234  2241.4136  
753  49  1797.4413  -2260.6272  2888.119  
754  914  1340.0243  -86.32211  1342.8018  
755  913  900.0574  -310.20755  952.0147  
756  914  772.9448  -776.19543  1095.4099  
757  913  1218.0505  -1213.9138  1719.661  
758  912  2025.5657  -990.8618  2254.933  
759  52  2927.4548  520.34796  2973.3406  
760  52  1575.0408  -3037.0444  3421.1682  
761  50  1436.0424  -28.744045  1436.33  
762  50  588.95844  292.98392  657.8082  
763  50  -28.274513  -232.53897  234.25162  
764  914  168.44739  -1090.0981  1103.036  
765  914  1344.1978  -1248.4977  1834.561  
766  914  4016.4185  1487.2122  4282.9214  
767  913  1345.3539  -3084.8848  3365.4854  
768  913  1720.059  -478.97778  1785.5034  
769  49  774.9134  458.3978  900.344  
770  50  -354.03082  287.63092  456.1462  
771  50  -770.9187  -742.38007  1070.254  
772  50  -184.1648  -1597.3027  1607.8845  
773  50  4945.069  2043.2402  5350.564  
774  913  1418.1143  -2503.3503  2877.1184  
775  913  1957.1277  -959.1956  2179.5425  
776  913  1282.1104  281.35385  1312.6184  
777  914  -13.735794  572.07886  572.2438  
778  913  -1299.7529  -204.9943  1315.8192  
779  50  -2271.522  -1763.1788  2875.5193  
780  49  5421.391  2030.818  5789.275  
781  51  1719.2352  -1549.342  2314.353  
782  52  2070.4224  -1082.5502  2336.357  
783  49  1800.301  -92.21844  1802.6614  
784  913  683.28345  548.55005  876.23254  
785  914  -973.63794  204.0037  994.7805  
786  912  -4456.0537  -1582.5916  4728.743  
787  914  4963.971  1387.6688  5154.283  
788  912  2078.616  -620.55164  2169.2693  
789  49  2123.2292  -785.4034  2263.8376  
790  50  2127.4324  -287.6243  2146.7874  
791  49  1526.8177  295.4799  1555.1465  
792  49  217.35802  390.7229  447.11172  
793  51  -6218.206  -953.3695  6290.866  
794  913  3738.603  639.48773  3792.901  
795  912  2290.1016  -91.18649  2291.9163  
796  914  2203.9717  -280.77563  2221.7844  
797  912  2248.0525  -151.28911  2253.1375  
798  910  2221.8018  24.251822  2221.934  
799  50  2187.539  48.564503  2188.0781  
