n v(n)    Re(T)       Im(T)        Mod(T) 
   
0  53  364774.0  0.0  364774.0  
1  914  1857.0634  702.0039  1985.3196  
2  913  2152.5066  -1161.2281  2445.7588  
3  913  1799.9858  -408.3801  1845.7311  
4  912  2388.2122  -516.2533  2443.3738  
5  915  570.88116  4042.6619  4082.771  
6  913  1116.2201  1286.5273  1703.2616  
7  913  2609.1423  2162.6187  3388.8853  
8  914  1911.6472  3085.0227  3629.292  
9  912  2994.8901  3207.85  4388.584  
10  914  1469.2506  2193.8638  2640.4043  
11  913  690.4867  4643.058  4694.1196  
12  913  3227.8022  4555.0273  5582.7393  
13  912  2834.7395  5097.216  5832.4404  
14  912  4280.203  9455.416  10379.067  
15  914  6590.9185  21419.701  22410.797  
16  913  -46840.395  -210406.27  215557.0  
17  914  -2585.3418  -18795.514  18972.488  
18  914  -380.82672  -10019.763  10026.997  
19  915  409.55026  -5599.177  5614.1353  
20  914  1203.8076  -5382.6367  5515.608  
21  914  -350.8139  -4484.138  4497.8403  
22  912  335.7282  -2370.933  2394.585  
23  913  1497.9338  -4182.3657  4442.5205  
24  50  863.22955  -3902.2073  3996.5469  
25  49  2009.4318  -4002.1606  4478.293  
26  51  1134.2872  -2052.929  2345.4478  
27  50  -736.1365  -4534.633  4593.995  
28  52  2359.7417  -2214.132  3235.8557  
29  50  2262.6035  -1657.5901  2804.8137  
30  49  4010.1606  -1194.9226  4184.403  
31  50  5582.284  -3781.4375  6742.4897  
32  50  -17666.2  8078.04  19425.48  
33  50  -1286.8193  1179.4982  1745.6002  
34  51  -449.0438  -1438.9515  1507.389  
35  51  189.64923  -1415.1188  1427.7703  
36  50  579.5032  -2830.8684  2889.5745  
37  49  1310.5969  2903.4492  3185.5425  
38  50  754.96454  646.69574  994.07587  
39  51  2035.7931  369.2674  2069.0122  
40  49  2043.1012  1752.969  2692.0554  
41  52  3323.436  1352.7494  3588.197  
42  51  2080.931  974.8128  2297.9412  
43  51  1557.3798  4182.241  4462.799  
44  51  3953.4744  2845.875  4871.2383  
45  51  4013.676  3262.06  5172.101  
46  52  7262.7085  5968.7964  9400.717  
47  51  15846.456  17577.916  23666.291  
48  51  -37603.6  -48591.945  61442.723  
49  49  -7605.313  -11966.89  14179.112  
50  51  -4096.722  -7368.2676  8430.569  
51  913  -1818.0822  -4240.585  4613.89  
52  913  -1168.3754  -4504.1753  4653.2456  
53  914  -1333.8228  -3693.9482  3927.383  
54  912  -413.9663  -1564.405  1618.2494  
55  912  -160.4037  -3722.3892  3725.8435  
56  915  -470.59128  -3599.1357  3629.7705  
57  913  322.77518  -4950.1133  4960.6255  
58  914  639.4195  -2519.7473  2599.6123  
59  913  -1909.7987  -3817.0945  4268.201  
60  915  752.68677  -3857.6902  3930.4338  
61  914  1067.8572  -3298.1362  3466.702  
62  913  3531.9824  -4116.215  5423.8477  
63  914  6412.078  -9945.426  11833.269  
64  913  -10397.314  11910.397  15810.178  
65  914  -1867.3713  2957.1458  3497.3972  
66  914  -1873.4163  -3.276453  1873.4192  
67  914  -1174.51  -926.12067  1495.7183  
68  913  -2209.951  -3448.077  4095.4995  
69  914  1141.235  1539.7267  1916.553  
70  913  325.9913  258.30557  415.9232  
71  913  688.99097  -620.2739  927.06433  
72  912  1353.4746  678.03174  1513.8099  
73  913  2342.87  -179.81337  2349.7603  
74  905  1558.095  -675.7709  1698.3304  
75  51  2013.3444  3340.8577  3900.6265  
76  50  3446.4873  1310.7616  3687.3257  
77  49  3573.3877  1402.2235  3838.6626  
78  50  7033.192  1552.417  7202.485  
79  53  20626.176  8749.072  22405.031  
80  51  -23460.117  -11889.668  26300.975  
81  49  -7557.3896  -5100.4893  9117.518  
82  50  -5098.8247  -3450.9233  6156.857  
83  50  -2492.8674  -1863.644  3112.4841  
84  51  -2605.8286  -2034.4735  3305.9683  
85  51  -1924.7228  -2485.025  3143.232  
86  51  -303.13248  -444.6654  538.1604  
87  50  -998.98596  -2093.2285  2319.3918  
88  50  -1136.0223  -2150.0864  2431.752  
89  50  -1534.597  -4326.145  4590.263  
90  50  -67.693665  -2399.3928  2400.3477  
91  52  -2315.6604  -2393.8147  3330.5603  
92  50  -1095.7816  -3782.05  3937.5933  
93  51  -687.5496  -3280.595  3351.8691  
94  50  1163.5552  -5306.161  5432.238  
95  51  2478.0637  -15969.777  16160.897  
96  50  -3045.0322  10284.787  10726.093  
97  50  -282.05203  3568.8232  3579.9514  
98  49  -1414.9484  1498.7814  2061.1707  
99  49  -1231.4335  60.322914  1232.91  
100  51  -4422.9985  -2236.9377  4956.491  
101  916  427.10696  722.2306  839.06934  
102  915  12.819443  -70.168274  71.32969  
103  913  -578.1939  -840.04944  1019.7996  
104  913  478.87628  198.65195  518.4449  
105  913  831.83374  -807.5886  1159.3734  
106  913  -15.468269  -1764.9017  1764.9696  
107  913  2034.8387  2269.1787  3047.9077  
108  912  2407.4011  486.73834  2456.1135  
109  911  2346.7756  540.0113  2408.1047  
110  913  4154.466  -1194.4257  4322.7583  
111  915  18906.193  -716.6356  18919.771  
112  913  -10397.485  -133.85515  10398.348  
113  912  -4576.68  -1190.6647  4729.026  
114  912  -3743.0085  -550.35547  3783.2532  
115  912  -1562.0795  -210.5316  1576.203  
116  914  -2206.729  750.35754  2330.813  
117  915  -1980.394  -998.8204  2218.0176  
118  914  411.50812  329.136  526.9435  
119  913  -635.17194  -476.9956  794.3351  
120  913  -549.6296  -523.1753  758.8182  
121  913  -2441.8586  -2554.501  3533.8574  
122  913  -576.8031  -1569.489  1672.1237  
123  913  -1721.4805  -894.5837  1940.045  
124  911  -1999.7428  -2410.4695  3131.9856  
125  50  -1692.6261  -1806.2019  2475.3481  
126  51  -913.7524  -3832.732  3940.1494  
127  50  -5074.192  -17986.656  18688.693  
128  50  681.545  5373.517  5416.5664  
129  51  1242.5281  2145.2148  2479.077  
130  52  69.53348  1711.6392  1713.0509  
131  53  -102.67021  411.48843  424.10364  
132  49  -5034.338  -184.13577  5037.704  
133  51  -318.501  467.85992  565.9822  
134  52  -290.02078  -307.3417  422.57657  
135  50  -1298.9756  -585.4383  1424.8073  
136  50  -51.691963  -22.097725  56.217155  
137  49  -298.31873  -428.9615  522.4959  
138  50  -1921.6254  -1799.9935  2632.987  
139  50  1629.3872  1180.2156  2011.9174  
140  50  1357.665  198.19595  1372.0554  
141  51  1472.8859  620.9834  1598.4408  
142  51  972.6826  -1376.065  1685.131  
143  51  12344.267  -6470.714  13937.397  
144  50  -2291.1133  1285.5867  2627.153  
145  51  -1756.3556  -504.0032  1827.2395  
146  50  -1892.533  160.27014  1899.3071  
147  49  -399.50266  -230.01164  460.98563  
148  51  -388.60727  2481.1677  2511.4158  
149  49  -1377.6293  186.39597  1390.182  
150  50  1208.0906  278.527  1239.7823  
151  60  456.891  411.77087  615.06476  
152  914  949.378  236.65564  978.42957  
153  914  -2024.759  -748.55774  2158.7004  
154  913  -464.20767  -495.56232  679.0219  
155  913  -425.86295  39.49229  427.6902  
156  915  -1607.3389  -833.164  1810.442  
157  913  -899.21  -61.232197  901.2924  
158  914  -547.36096  -940.6571  1088.3197  
159  914  -12210.511  -14408.754  18886.734  
160  913  262.78156  802.22174  844.1646  
161  912  1107.3215  -130.74638  1115.0138  
162  915  1032.2478  663.98804  1227.3612  
163  914  892.2376  -527.0095  1036.2562  
164  913  -4068.5398  1377.5782  4295.432  
165  912  -577.36865  704.7464  911.0555  
166  914  -479.25793  -502.88998  694.68445  
167  914  -1638.8533  -259.82742  1659.3223  
168  913  -407.5885  -359.82056  543.69037  
169  913  -593.5088  76.65214  598.4382  
170  913  -3324.1082  -742.7294  3406.0742  
171  912  753.2927  317.5494  817.4886  
172  912  621.0603  73.862206  625.4371  
173  913  1296.9133  617.7925  1436.5416  
174  913  -696.9959  -149.50764  712.8505  
175  49  5054.158  -6964.3506  8605.039  
176  48  578.5045  -179.27542  605.64606  
177  48  -714.9986  -1198.3644  1395.4569  
178  50  -1052.7094  -281.6254  1089.7292  
179  50  -537.5082  -1442.893  1539.758  
180  51  1681.4032  2389.75  2921.9895  
181  51  -590.3412  813.53827  1005.16034  
182  51  1417.8424  -246.66928  1439.1396  
183  51  1408.0988  313.47644  1442.5704  
184  50  2231.0767  -283.28348  2248.9893  
185  50  -760.92053  171.02438  779.90344  
186  50  320.05203  416.2641  525.0801  
187  52  945.54315  58.933636  947.378  
188  52  -418.46512  -57.262466  422.36484  
189  51  828.1441  467.99506  951.2319  
190  52  2470.4067  736.4572  2577.8438  
191  51  -15323.166  -7063.5635  16872.857  
192  50  -2017.5599  -913.3343  2214.6619  
193  51  -521.2846  -1335.4498  1433.5842  
194  51  767.7845  -496.27832  914.2129  
195  51  831.8476  -1948.0217  2118.197  
196  51  -2528.0618  1770.3462  3086.296  
197  52  -261.81204  918.95654  955.5243  
198  50  -668.71423  -629.6771  918.5162  
199  50  -1616.1527  49.461735  1616.9094  
200  49  -883.8567  -823.0989  1207.7642  
201  52  -264.57297  180.96692  320.5431  
202  913  -3604.9702  650.86597  3663.255  
203  913  -248.11224  -104.87117  269.36526  
204  914  -101.345184  16.03661  102.60614  
205  913  1351.8303  138.65541  1358.9226  
206  914  -713.32263  633.30365  953.8882  
207  913  470.38718  -3905.4946  3933.72  
208  914  773.5542  -954.54956  1228.6378  
209  913  -1067.525  -1311.723  1691.2206  
210  914  -1276.3949  -599.0987  1410.0011  
211  912  -2438.106  -2104.2227  3220.5767  
212  913  2622.5554  1108.6205  2847.2507  
213  913  38.973827  864.5711  865.4491  
214  914  872.50995  -710.4804  1125.1915  
215  914  1538.9458  -191.77051  1550.8483  
216  914  2459.3047  -1516.93  2889.5078  
217  913  178.63393  -64.8823  190.05208  
218  912  1261.704  646.2596  1417.5853  
219  914  1748.4753  -535.86926  1828.7488  
220  915  637.83435  -132.156  651.38153  
221  913  2124.93  -423.75815  2166.7712  
222  916  6109.356  -612.02637  6139.9355  
223  913  -13118.946  40.121243  13119.008  
224  913  -3520.913  -78.86241  3521.7961  
225  51  -2116.0847  -823.0724  2270.5203  
226  51  9.867614  -775.27563  775.33844  
227  51  -188.25558  -2583.4822  2590.332  
228  50  -1435.3855  1246.7778  1901.2592  
229  50  374.47455  758.8239  846.1944  
230  48  -648.89453  -500.46973  819.4718  
231  49  -1275.9414  256.91385  1301.5496  
232  51  -1601.0835  -1038.7565  1908.529  
233  48  -0.07782841  -336.46854  336.46854  
234  50  -2963.2175  1703.4375  3417.9463  
235  49  -1122.8988  -40.3302  1123.6228  
236  53  -744.0779  182.89705  766.22656  
237  51  924.42334  -730.2768  1178.0759  
238  51  -531.0594  -66.72162  535.2344  
239  50  -631.0157  -570.4396  850.6363  
240  49  607.00055  -651.49365  890.44574  
241  51  -1303.2303  -563.861  1419.9819  
242  50  -1589.1595  -160.34933  1597.2289  
243  52  -4935.3667  -857.0917  5009.2363  
244  50  2054.029  -241.83037  2068.216  
245  51  271.19467  675.8856  728.2637  
246  53  -63.149292  -635.65906  638.78815  
247  49  1000.0296  -385.22357  1071.6605  
248  50  1434.9409  -2339.5562  2744.5544  
249  51  58.77107  -719.1717  721.5691  
250  50  1864.954  270.10632  1884.4126  
251  53  1849.5211  -1189.7727  2199.156  
252  913  1063.6844  -502.1727  1176.2661  
253  913  1940.5365  -1691.8348  2574.4878  
254  913  7599.169  -4462.1387  8812.381  
255  913  -7725.008  3765.3066  8593.793  
256  915  -3048.4714  1240.2202  3291.0977  
257  914  -2488.1438  577.7359  2554.3372  
258  913  -400.5979  -297.82428  499.1773  
259  915  -1206.6334  -1925.1276  2272.0212  
260  913  -1038.3007  680.8385  1241.6156  
261  914  949.4901  225.64401  975.9338  
262  912  -396.9849  -445.41748  596.6521  
263  914  -634.1355  343.44858  721.169  
264  912  -2292.7139  -627.92615  2377.147  
265  913  -178.07213  -988.75665  1004.6638  
266  914  -1719.2966  1977.9126  2620.7097  
267  914  -1534.6451  357.47165  1575.729  
268  913  -1056.0219  627.40424  1228.3396  
269  913  65.35181  -1233.3402  1235.0704  
270  912  -1658.9374  -1299.9298  2107.5793  
271  913  142.18631  884.7364  896.089  
272  913  872.31116  -486.1899  998.6528  
273  916  -598.55865  154.53029  618.1845  
274  913  -935.3506  365.40775  1004.19293  
275  909  -6118.551  2090.736  6465.8984  
276  51  600.9433  -595.7446  846.19415  
277  51  124.67705  487.47632  503.16748  
278  50  -884.7068  6.4510765  884.73035  
279  49  372.34998  -91.46718  383.4198  
280  50  2.140705  -2051.8994  2051.9004  
281  51  -941.6394  -795.40125  1232.6183  
282  51  1747.1967  -260.7497  1766.5465  
283  51  1284.5109  -1562.2502  2022.5217  
284  51  994.86487  -692.6131  1212.2166  
285  51  646.2993  -1933.1608  2038.3359  
286  50  5611.3164  -8213.4375  9947.232  
287  49  -2672.5098  3397.675  4322.789  
288  50  -1570.5691  1428.2596  2122.8784  
289  50  -1658.5627  1482.7601  2224.7266  
290  51  -116.16762  41.99783  123.526245  
291  50  -1099.9525  -555.42004  1232.2285  
292  51  -986.67316  536.58856  1123.1434  
293  51  1170.2632  -552.94165  1294.3185  
294  50  66.61008  -608.8473  612.48016  
295  50  312.98553  -40.899273  315.64648  
296  50  -2319.6882  171.23553  2325.9998  
297  51  -622.883  -1287.0646  1429.8666  
298  51  -526.6611  1483.5532  1574.2623  
299  50  -1403.9353  723.91174  1579.583  
300  52  -729.5611  1085.3201  1307.7382  
301  51  -588.0748  -967.29016  1132.0258  
302  79  -3955.4897  -1528.8103  4240.656  
303  913  609.739  665.23804  902.3986  
304  913  983.6296  -996.74414  1400.3663  
305  913  339.5721  -109.28029  356.72314  
306  914  213.8074  -244.09532  324.49365  
307  913  -4995.0513  5036.835  7093.6763  
308  914  -419.3953  169.17227  452.22964  
309  913  -160.08423  509.87784  534.4178  
310  914  -1113.2383  912.8605  1439.6575  
311  913  80.39203  450.40796  457.52618  
312  914  -812.80695  -969.75507  1265.3379  
313  914  -2008.4462  228.90239  2021.448  
314  912  1073.2444  -390.52615  1142.0876  
315  913  514.15234  -1311.7859  1408.9481  
316  914  919.7287  -548.92993  1071.0859  
317  915  -456.92352  -859.9641  973.81586  
318  912  1444.3048  -9403.176  9513.45  
319  913  -184.62154  1033.2556  1049.62  
320  915  -717.1734  476.04004  860.7856  
321  912  -782.18555  1349.7065  1559.975  
322  914  -45.973194  -215.87819  220.71912  
323  912  102.191185  251.11328  271.11053  
324  917  -711.85724  833.95874  1096.4615  
325  913  943.37775  -1145.6732  1484.0919  
326  52  375.91913  -952.74786  1024.2284  
327  50  1034.8751  -1032.8115  1462.0759  
328  50  -1579.4526  832.38513  1785.3671  
329  49  -913.43475  -1130.693  1453.5576  
330  50  210.14037  494.16537  536.9901  
331  52  -896.0647  736.3203  1159.7843  
332  49  83.36319  1039.7792  1043.1156  
333  51  -233.6237  -619.16504  661.7744  
334  49  -5910.408  129.34766  5911.823  
335  51  -17.046316  212.22006  212.90358  
336  50  190.61131  -1623.0308  1634.1853  
337  52  577.4992  -1165.2596  1300.5135  
338  51  471.29688  -2209.3784  2259.087  
339  51  -2212.1423  6296.489  6673.7803  
340  51  -490.5325  1144.8171  1245.4832  
341  50  -253.80803  586.23  638.81464  
342  51  -871.34106  1607.2228  1828.2233  
343  51  81.91241  718.3537  723.0088  
344  50  -759.62286  97.72001  765.88257  
345  51  -2226.3333  1853.6002  2896.9626  
346  50  429.18576  -8.18631  429.26382  
347  51  -105.96715  -648.2937  656.89703  
348  50  985.0407  -437.05814  1077.648  
349  48  -361.45712  722.1227  807.5347  
350  51  -2385.4575  -7364.453  7741.161  
351  51  -63.473698  -860.0236  862.3628  
352  54  -991.56525  -322.22284  1042.6069  
353  913  -631.46576  907.3496  1105.4557  
354  914  -1082.2472  -516.7361  1199.2811  
355  914  1434.6947  -93.32712  1437.7269  
356  914  -51.40757  1021.2601  1022.5531  
357  914  401.78665  -1256.8787  1319.5365  
358  914  381.01508  -1228.0605  1285.8092  
359  912  1025.1863  -2379.3792  2590.84  
360  914  -604.6048  776.13873  983.8385  
361  914  -776.4013  -779.76886  1100.3811  
362  914  415.13876  -568.9061  704.2687  
363  914  -426.4443  366.14133  562.06244  
364  912  775.92926  340.3539  847.29395  
365  913  860.1535  -1173.9789  1455.3661  
366  913  -5891.643  2810.9705  6527.8647  
367  915  -959.0399  600.5457  1131.5532  
368  913  -1060.5083  -1258.0745  1645.4268  
369  914  -141.1126  -1824.1083  1829.5583  
370  914  -1041.2533  -4175.053  4302.9385  
371  914  416.79767  5280.985  5297.407  
372  913  258.7022  1407.3287  1430.9092  
373  913  -173.26355  488.7921  518.59235  
374  913  -366.39246  1766.3079  1803.9088  
375  912  23.360474  697.9979  698.38873  
376  49  -224.8754  361.0695  425.37057  
377  49  -1301.9259  3104.415  3366.3635  
378  51  89.66701  678.3995  684.2997  
379  50  -262.92496  252.1414  364.2867  
380  51  1016.27  -598.0624  1179.1876  
381  51  719.0677  1580.8137  1736.6721  
382  49  -3805.135  -3667.7798  5285.041  
383  48  -771.8375  -1268.876  1485.1866  
384  52  -1600.8513  -295.51688  1627.899  
385  51  -904.94653  963.38666  1321.7572  
386  50  -2852.6729  646.7212  2925.0625  
387  50  1665.567  -1168.8667  2034.7882  
388  50  640.6767  946.67505  1143.0924  
389  50  -52.358265  -929.59485  931.0682  
390  52  194.91132  -1230.8392  1246.1764  
391  50  52.98067  -3266.7712  3267.2007  
392  52  -31.179218  159.49475  162.51375  
393  51  -346.5317  -667.46875  752.063  
394  50  198.53041  -1385.8517  1399.9998  
395  51  -189.22284  -124.665695  226.59836  
396  49  927.7309  -755.2558  1196.2843  
397  50  1456.5869  -3039.0352  3370.0713  
398  49  -3780.9758  4564.8877  5927.392  
399  51  -1004.42004  1522.2667  1823.775  
400  51  -1707.997  -3.0792031  1707.9998  
401  49  -1001.3002  -1526.2964  1825.4268  
402  52  -3767.9321  -4568.304  5921.716  
403  913  1452.9541  3046.4954  3375.2349  
404  913  925.55396  760.1319  1197.6855  
405  913  -188.93604  126.18679  227.2002  
406  913  196.57767  1387.4325  1401.2893  
407  914  -348.28677  668.3193  753.62744  
408  914  -29.96739  -156.56332  159.40552  
409  912  46.705235  3267.6492  3267.983  
410  914  192.49522  1231.0654  1246.0243  
411  913  -55.469532  926.54156  928.2005  
412  914  642.5342  -945.35864  1143.0455  
413  915  1661.4066  1171.539  2032.9229  
414  914  -2854.5784  -654.73193  2928.7012  
415  912  -904.2699  -963.57306  1321.4299  
416  913  -1602.1941  295.13336  1629.15  
417  913  -775.2811  1267.9794  1486.2141  
418  913  -3810.4338  3657.517  5281.7456  
419  913  726.4077  -1583.391  1742.0664  
420  914  1015.96844  598.31354  1179.0552  
421  914  -262.12726  -254.47975  365.33636  
422  912  90.3412  -681.65045  687.61096  
423  913  -1295.4231  -3107.2495  3366.4702  
424  914  -223.42902  -359.54364  423.31094  
425  913  24.831512  -697.5566  697.9984  
426  902  -362.2753  -1767.7272  1804.4674  
427  52  -171.66263  -488.7025  517.9751  
428  49  261.287  -1405.4978  1429.5786  
429  50  426.1857  -5273.713  5290.906  
430  49  -1051.0946  4179.3564  4309.5034  
431  49  -145.6781  1824.7904  1830.5961  
432  51  -1064.7662  1254.9368  1645.7805  
433  51  -960.5307  -603.39087  1134.3279  
434  51  -5884.0063  -2822.253  6525.844  
435  49  862.50433  1178.1338  1460.1072  
436  50  778.3488  -337.78723  848.48517  
437  51  -424.44644  -364.5939  559.53864  
438  50  414.39392  572.37305  706.63513  
439  51  -775.1228  780.3647  1099.9021  
440  49  -601.4585  -773.8098  980.06836  
441  50  1022.01434  2383.6572  2593.518  
442  50  378.60498  1229.2825  1286.2648  
443  49  399.74457  1256.2667  1318.333  
444  51  -48.797264  -1019.234  1020.4014  
445  49  1435.3756  98.3995  1438.7445  
446  50  -1084.01  515.66315  1200.4109  
447  49  -631.48456  -906.124  1104.4607  
448  49  -991.428  323.80017  1042.965  
449  50  -66.08501  865.0655  867.58606  
450  51  -2399.339  7358.43  7739.7236  
451  50  -358.54092  -727.10516  810.6994  
452  51  984.75104  437.32425  1077.4911  
453  913  -107.69384  645.4485  654.3712  
454  915  426.77844  5.9904346  426.8205  
455  913  -2223.873  -1859.0089  2898.5386  
456  914  -760.412  -100.28369  766.9962  
457  914  83.56921  -719.709  724.54456  
458  913  -865.60156  -1611.7261  1829.4608  
459  913  -252.78629  -587.33405  639.42334  
460  912  -488.7661  -1147.553  1247.3052  
461  913  -2198.2969  -6297.918  6670.553  
462  913  468.7187  2215.888  2264.9187  
463  914  575.51605  1168.862  1302.865  
464  913  184.49606  1623.8396  1634.2869  
465  914  -21.494493  -210.99127  212.0833  
466  912  -5908.653  -139.66046  5910.303  
467  914  -229.85765  619.981  661.2193  
468  913  87.219315  -1038.2552  1041.9124  
469  912  -893.24  -737.57574  1158.4022  
470  914  212.80667  -490.60895  534.77454  
471  912  -914.77985  1131.2397  1454.8284  
472  913  -1575.1035  -833.38495  1781.988  
473  913  1035.8369  1037.5176  1466.0836  
474  912  376.86743  953.98346  1025.7258  
475  914  940.8802  1147.89  1484.2194  
476  911  -711.4091  -834.9569  1096.9303  
477  48  104.04868  -250.97612  271.68942  
478  50  -47.715057  217.34393  222.51991  
479  49  -777.75836  -1350.0448  1558.053  
480  51  -715.7982  -473.55627  858.2672  
481  50  -179.94118  -1026.2583  1041.9141  
482  51  1425.6968  9409.061  9516.461  
483  51  -459.06525  854.06696  969.62427  
484  50  920.03766  547.9175  1070.8328  
485  50  508.2035  1311.8441  1406.8425  
486  49  1070.6508  390.58295  1139.6702  
487  49  -2010.2659  -233.83298  2023.8198  
488  52  -816.26544  967.8328  1266.0923  
489  52  80.224754  -452.946  459.99576  
490  51  -1111.9104  -915.6544  1440.4054  
491  51  -159.12605  -510.3166  534.5504  
492  49  -421.38672  -171.7879  455.05807  
493  52  -4984.2837  -5045.5854  7092.321  
494  52  217.22589  247.97066  329.66122  
495  51  340.3989  111.103516  358.07178  
496  50  982.0186  1001.2671  1402.4608  
497  52  608.6741  -662.9018  899.95715  
498  50  -3958.184  1523.3087  4241.1895  
499  53  -587.7681  965.8406  1130.6278  
500  49  -725.158  -1087.3762  1306.997  
501  52  -1401.8369  -725.55084  1578.4711  
502  51  -521.2629  -1484.3763  1573.2413  
503  59  -625.4208  1288.0571  1431.8667  
504  912  -2317.2175  -175.26393  2323.8362  
505  913  315.79977  43.13347  318.73187  
506  913  67.742485  609.98846  613.7385  
507  913  1168.9521  556.3319  1294.5865  
508  912  -985.6345  -537.7467  1122.7854  
509  913  -1101.5507  554.5083  1233.2451  
510  913  -115.6306  -42.03029  123.03244  
511  916  -1651.8972  -1487.9863  2223.256  
512  913  -1566.0864  -1428.8378  2119.9539  
513  914  -2659.585  -3393.4866  4311.513  
514  913  5598.1167  8230.3545  9953.775  
515  913  643.4591  1930.9589  2035.3481  
516  913  994.10535  695.05096  1212.9885  
517  914  1281.21  1564.0035  2021.7828  
518  913  1745.103  263.7207  1764.9172  
519  913  -945.6033  791.6973  1233.2681  
520  913  -5.606085  2053.8074  2053.815  
521  914  370.58365  90.03102  381.3631  
522  913  -885.4023  -8.622395  885.4443  
523  913  123.55482  -490.17526  505.50726  
524  914  594.73285  595.84625  841.8669  
525  913  -6113.813  -2103.5667  6465.578  
526  913  -931.874  -366.07376  1001.19885  
527  50  -596.3835  -153.9032  615.92163  
528  51  872.7055  489.64166  1000.6817  
529  50  143.23943  -881.2581  892.8233  
530  52  -1664.0105  1298.3677  2110.6135  
531  51  63.141434  1232.2273  1233.844  
532  51  -1055.3083  -630.11273  1229.1125  
533  51  -1534.8363  -361.1848  1576.7616  
534  52  -1715.4686  -1980.73  2620.329  
535  51  -180.05742  991.1879  1007.40967  
536  51  -2292.841  624.0165  2376.24  
537  49  -630.2646  -343.12677  717.6137  
538  52  -394.9278  445.33215  595.22156  
539  51  950.75195  -222.84944  976.5199  
540  50  -1034.7793  -679.42126  1237.8939  
541  50  -1211.4073  1925.6914  2275.0374  
542  53  -400.3246  296.6605  498.2642  
543  50  -2486.3684  -582.9089  2553.7837  
544  51  -3044.087  -1245.6019  3289.071  
545  49  -7707.176  -3776.5994  8582.73  
546  51  7599.2075  4482.547  8822.765  
547  50  1937.0825  1696.4087  2574.8962  
548  49  1064.1372  503.60257  1177.2865  
549  50  1848.9741  1193.5962  2200.7673  
550  52  1864.775  -265.35236  1883.5599  
551  50  56.226738  721.19446  723.38293  
552  52  1429.392  2343.0237  2744.617  
553  52  996.43536  386.21753  1068.6661  
554  914  -65.94322  634.1629  637.5822  
555  914  270.41965  -673.9409  726.1702  
556  913  2049.1094  248.76036  2064.1538  
557  914  -4938.437  848.11096  5010.734  
558  914  -1585.6433  156.03769  1593.3024  
559  914  -1302.6754  562.3964  1418.8915  
560  913  607.07825  653.3122  891.83  
561  913  -631.50995  569.3528  850.2749  
562  912  -531.4347  67.04492  535.64716  
563  913  923.17865  728.6349  1176.0814  
564  912  -746.13153  -183.70476  768.41376  
565  912  -1124.0305  37.915688  1124.6698  
566  914  -2959.556  -1708.5732  3417.3372  
567  914  0.55619144  339.0056  339.00607  
568  914  -1602.076  1036.0377  1907.8842  
569  914  -1271.7384  -260.2581  1298.0958  
570  913  -646.594  498.4965  816.44507  
571  913  375.6745  -757.4754  845.51776  
572  912  -1433.3323  -1246.5834  1899.5819  
573  912  -194.20563  2584.8289  2592.1143  
574  913  5.377159  775.95135  775.97  
575  913  -2120.967  820.0931  2273.995  
576  912  -3522.945  71.45624  3523.6697  
577  880  -13110.652  -66.72439  13110.822  
578  49  6120.256  623.8584  6151.9697  
579  50  2127.627  428.90433  2170.4275  
580  50  641.19855  133.44756  654.93805  
581  51  1750.2568  539.9693  1831.6566  
582  50  1262.9072  -641.12714  1416.3258  
583  52  182.18321  69.279175  194.91107  
584  50  2458.3137  1522.8855  2891.7964  
585  50  1537.636  196.40538  1550.1289  
586  51  870.17975  712.3491  1124.5684  
587  51  39.866722  -865.2897  866.2076  
588  50  2621.5964  -1100.9956  2843.4062  
589  50  -2445.6548  2103.5122  3225.8318  
590  49  -1278.5103  598.1401  1411.5099  
591  49  -1068.6196  1311.1797  1691.4905  
592  51  773.7323  958.023  1231.4503  
593  52  459.16974  3905.1472  3932.0493  
594  50  -714.2685  -636.74805  956.8843  
595  50  1351.5664  -136.51996  1358.4437  
596  50  -103.30868  -16.037716  104.54612  
597  51  -254.51552  104.94438  275.3025  
598  49  -3605.2375  -657.8337  3664.7625  
599  51  -266.97845  -173.262  318.27222  
600  50  -886.0221  822.2427  1208.7672  
601  51  -1614.3885  -50.642437  1615.1827  
602  50  -668.3364  630.30066  918.6689  
603  50  -258.6107  -920.22186  955.8702  
604  912  -2522.9443  -1772.3905  3083.28  
605  914  828.73157  1953.0929  2121.6428  
606  914  764.907  501.83185  914.83215  
607  913  -529.28467  1336.4679  1437.4591  
608  913  -2026.1798  912.8162  2222.3047  
609  913  -15331.975  7031.0312  16867.271  
610  912  2485.1968  -736.3135  2591.98  
611  913  835.6203  -467.49274  957.5024  
612  912  -414.85516  55.46043  418.5459  
613  913  950.51685  -57.737625  952.2688  
614  912  323.19473  -415.17587  526.1424  
615  914  -758.08795  -171.83093  777.31793  
616  914  2235.1555  288.63205  2253.7144  
617  913  1411.6589  -309.2072  1445.1263  
618  914  1417.7004  249.69757  1439.522  
619  913  -588.23846  -814.80914  1004.9569  
620  913  1688.0233  -2385.2659  2922.1423  
621  913  -539.5054  1445.6892  1543.0759  
622  914  -1052.4742  282.89532  1089.831  
623  913  -713.2442  1200.4773  1396.375  
624  913  582.0844  184.81854  610.721  
625  913  5038.392  6975.052  8604.461  
626  913  -699.2558  144.99323  714.13  
627  910  1298.3229  -621.5869  1439.4487  
628  50  618.30225  -72.74485  622.56683  
629  51  751.1589  -315.111  814.5763  
630  51  -3327.4346  735.91345  3407.8425  
631  51  -594.74225  -76.906494  599.69403  
632  49  -409.9114  359.06854  544.9381  
633  53  -1639.2079  257.28427  1659.2762  
634  52  -480.0532  502.52887  694.97217  
635  50  -578.78955  -705.7898  912.7632  
636  51  -4065.394  -1382.7406  4294.1123  
637  50  894.1493  532.4785  1040.6903  
638  49  1034.786  -658.1487  1226.353  
639  50  1103.9048  138.77994  1112.5941  
640  51  258.31592  -791.6082  832.68884  
641  51  -12237.185  14387.073  18887.47  
642  51  -540.9261  932.8925  1078.3735  
643  51  -894.2814  55.050568  895.9742  
644  50  -1604.8331  826.8694  1805.326  
645  51  -422.22433  -42.168022  424.3248  
646  51  -463.1104  492.86847  676.3066  
647  51  -2021.7993  742.61584  2153.869  
648  51  955.65814  -236.68958  984.5326  
649  52  461.3865  -411.22833  618.05035  
650  51  1211.0709  -276.6748  1242.2728  
651  51  -1375.6389  -191.41751  1388.8927  
652  51  -380.45282  -2481.9167  2510.9072  
653  53  -396.7476  231.76532  459.48212  
654  65  -1891.2349  -161.99646  1898.1602  
655  914  -1751.4607  500.33557  1821.5242  
656  913  -2276.174  -1284.96  2613.827  
657  911  12337.163  6501.9404  13945.639  
658  914  966.04114  1374.6893  1680.1804  
659  914  1472.8553  -619.6884  1597.91  
660  913  1355.8792  -195.93642  1369.9633  
661  913  1629.1471  -1175.1779  2008.7716  
662  914  -1929.1577  1797.8511  2637.0283  
663  914  -299.5768  428.93774  523.1958  
664  912  -53.49131  23.064152  58.251827  
665  914  -1300.516  583.85254  1425.5615  
666  913  -291.52673  306.78073  423.20474  
667  913  -320.1913  -466.93704  566.1737  
668  913  -5033.8994  174.42737  5036.9204  
669  913  -97.36867  -413.0285  424.35034  
670  913  75.63187  -1710.0587  1711.7305  
671  913  1246.9371  -2138.151  2475.185  
672  914  689.24585  -5354.9375  5399.1123  
673  913  -5114.6973  17985.564  18698.682  
674  913  -919.1817  3825.1318  3934.022  
675  913  -1694.9738  1799.2883  2471.9172  
676  914  -2003.5217  2401.695  3127.657  
677  913  -1718.2526  888.3259  1934.2996  
678  50  -577.25433  1566.8751  1669.8264  
679  49  -2443.3098  2546.9226  3529.3877  
680  49  -545.15234  519.40393  752.9751  
681  51  -634.95544  471.94217  791.137  
682  50  414.51044  -328.4468  528.86316  
683  50  -1981.1305  994.0018  2216.5103  
684  49  -2203.5417  -753.7404  2328.8882  
685  50  -1558.0806  207.71243  1571.865  
686  51  -3741.3674  541.78424  3780.3916  
687  51  -4571.439  1182.5404  4721.912  
688  51  -10374.893  114.45402  10375.523  
689  52  18922.166  752.07526  18937.105  
690  51  4147.0757  1199.7687  4317.138  
691  50  2347.681  -534.8676  2407.839  
692  51  2409.857  -483.03226  2457.7898  
693  51  2039.4141  -2262.7598  3046.193  
694  50  -21.151955  1768.6233  1768.7498  
695  52  829.59564  810.6476  1159.9045  
696  50  478.57114  -194.90036  516.7364  
697  50  -581.58386  839.43225  1021.218  
698  50  11.408785  69.76346  70.69017  
699  49  426.20032  -719.1765  835.97943  
700  50  -4427.068  2229.6045  4956.8203  
701  51  -1229.6062  -63.24031  1231.2314  
702  50  -1409.3212  -1502.1644  2059.7776  
703  51  -272.45453  -3566.2544  3576.6467  
704  54  -3019.5925  -10274.142  10708.685  
705  914  2452.7454  15988.823  16175.859  
706  912  1152.8182  5309.046  5432.767  
707  914  -695.36743  3280.062  3352.9604  
708  914  -1103.0773  3779.948  3937.6118  
709  913  -2320.9482  2388.997  3330.782  
710  912  -70.74021  2400.159  2401.2012  
711  913  -1541.2866  4321.0317  4587.688  
712  913  -1138.6761  2145.7603  2429.1707  
713  914  -1000.5246  2087.295  2314.703  
714  913  -303.36035  444.55945  538.2013  
715  914  -1936.7377  2481.856  3148.1045  
716  913  -2609.429  2027.8876  3304.7615  
717  914  -2495.4214  1858.0869  3111.208  
718  914  -5106.949  3439.5632  6157.2334  
719  914  -7565.637  5084.27  9115.299  
720  914  -23454.812  11827.597  26268.236  
721  914  20675.148  -8719.509  22438.617  
722  913  7040.978  -1540.1658  7207.4604  
723  914  3579.2666  -1397.9493  3842.5786  
724  914  3453.8254  -1302.5376  3691.2754  
725  915  2020.6224  -3333.4314  3898.0354  
726  913  1557.9951  681.5236  1700.5361  
727  914  2342.3599  186.10272  2349.7412  
728  51  1354.6907  -673.3911  1512.826  
729  50  688.4508  625.4499  930.1355  
730  49  325.61105  -256.22385  414.33466  
731  50  1143.1755  -1533.6737  1912.8527  
732  50  -2216.1108  3445.264  4096.4604  
733  49  -1174.5592  922.16693  1493.3121  
734  49  -1873.0061  -0.36944962  1873.0061  
735  50  -1862.937  -2960.215  3497.6287  
736  50  -10364.923  -11918.979  15795.368  
737  50  6404.965  9977.777  11856.628  
738  50  3525.0752  4127.773  5428.136  
739  50  1061.2324  3305.9326  3472.0894  
740  50  744.5945  3864.93  3936.001  
741  52  -1915.2992  3816.6458  4270.264  
742  50  637.2573  2526.047  2605.1892  
743  52  314.815  4954.9854  4964.976  
744  51  -477.48505  3600.5432  3632.066  
745  50  -166.54092  3723.8887  3727.6108  
746  50  -414.96094  1566.2345  1620.2725  
747  52  -1342.1447  3694.952  3931.1604  
748  51  -1177.6862  4506.4204  4657.764  
749  49  -1828.4048  4244.741  4621.7847  
750  49  -4114.351  7370.523  8441.119  
751  51  -7634.0674  11965.259  14193.182  
752  48  -37671.41  48488.246  61402.32  
753  51  15924.802  -17593.707  23730.525  
754  52  7289.219  -5969.4146  9421.6045  
755  913  4030.1633  -3264.256  5186.288  
756  913  3964.9348  -2843.7983  4879.3335  
757  913  1573.1101  -4181.9375  4468.0283  
758  913  2091.5374  -971.77094  2306.2668  
759  913  3332.283  -1346.2617  3593.9575  
760  913  2051.8887  -1747.7312  2695.3313  
761  913  2040.7228  -364.4412  2073.0093  
762  913  760.1585  -643.95874  996.2549  
763  912  1320.869  -2896.7703  3183.7043  
764  914  575.3792  2836.0142  2893.793  
765  914  186.99268  1416.9076  1429.1932  
766  913  -450.90558  1438.0092  1507.0455  
767  911  -1286.392  -1182.9275  1747.6046  
768  913  -17637.023  -8106.3394  19410.754  
769  913  5596.366  3806.0056  6767.9385  
770  913  4019.2834  1210.5132  4197.616  
771  913  2267.1667  1669.3191  2815.4343  
772  912  2362.0212  2229.329  3247.9304  
773  911  -737.50635  4541.4565  4600.95  
774  912  1138.0831  2063.6467  2356.6653  
775  913  2006.8516  4019.1084  4492.292  
776  914  864.2855  3911.861  4006.201  
777  914  1496.4514  4196.57  4455.397  
778  905  337.75745  2386.1404  2409.9265  
779  51  -354.1981  4505.713  4519.6133  
780  49  1200.5854  5413.267  5544.805  
781  52  399.34998  5635.991  5650.1216  
782  50  -403.06842  10076.569  10084.628  
783  51  -2636.5325  18898.99  19082.012  
784  51  -47254.9  210258.72  215503.48  
785  49  6690.409  -21575.14  22588.676  
786  50  4333.1733  -9525.626  10464.891  
787  50  2873.8428  -5144.6333  5892.896  
788  49  3261.6687  -4591.037  5631.705  
789  50  726.6118  -4677.369  4733.4707  
790  50  1501.6514  -2220.374  2680.4883  
791  50  3030.7756  -3227.2664  4427.2847  
792  51  1950.2279  -3104.2456  3666.0237  
793  51  2650.5361  -2176.8865  3429.8945  
794  50  1157.3986  -1303.457  1743.1499  
795  49  628.1773  -4058.3413  4106.6704  
796  51  2444.6077  506.62726  2496.5532  
797  50  1875.8895  396.0538  1917.2428  
798  50  2262.674  1148.5923  2537.5103  
799  50  2079.844  -715.23914  2199.3904  
